index,onset,duration,trial_type,choice_RT,partner_RT,points
0,4.78378297332506,1.124596592968146,partner-social_choice-star,1.124596592968146,n/a,n/a
1,9.032859868327932,1.5,partner-social_feedback-informative,n/a,n/a,87
2,15.266039280736777,1.2711571788991023,partner-social_feedback-partner,n/a,1.2711571788991023,n/a
3,21.015616994713127,1.5,partner-social_feedback-affective,n/a,n/a,n/a
0,26.033568950467043,0.8335470819204147,partner-social_choice-pentagon,0.8335470819204147,n/a,n/a
1,30.283234614032835,1.5,partner-social_feedback-informative,n/a,n/a,52
2,33.51575870143256,1.3220805398825632,partner-social_feedback-partner,n/a,1.3220805398825632,n/a
3,38.26558984187727,1.5,partner-social_feedback-affective,n/a,n/a,n/a
0,43.282788100731295,0.6227909750921299,partner-non_social_choice-star,0.6227909750921299,n/a,n/a
1,50.53264502265665,1.5,partner-non_social_feedback-informative,n/a,n/a,78
2,53.765105479167914,1.6573059779025243,partner-non_social_feedback-partner,n/a,1.6573059779025243,n/a
3,59.51469416398709,1.5,partner-non_social_feedback-affective,n/a,n/a,n/a
0,63.782472689001,1.2428158350219292,partner-social_choice-star,1.2428158350219292,n/a,n/a
1,68.03232595397867,1.5,partner-social_feedback-informative,n/a,n/a,80
2,71.26464671509189,1.2166770706826355,partner-social_feedback-partner,n/a,1.2166770706826355,n/a
3,76.013294832989,1.5,partner-social_feedback-affective,n/a,n/a,n/a
0,81.03128847794528,1.1286547077165778,partner-non_social_choice-star,1.1286547077165778,n/a,n/a
1,85.28200258838729,1.5,partner-non_social_feedback-informative,n/a,n/a,83
2,88.51446231350951,1.2514374546767613,partner-non_social_feedback-partner,n/a,1.2514374546767613,n/a
3,96.28109493399393,1.5,partner-non_social_feedback-affective,n/a,n/a,n/a
0,102.031508626191,1.0150823489743743,partner-social_choice-star,1.0150823489743743,n/a,n/a
1,106.2815670459288,1.5,partner-social_feedback-informative,n/a,n/a,81
2,109.51372287870504,1.2548420728894598,partner-social_feedback-partner,n/a,1.2548420728894598,n/a
3,115.27998505039818,1.5,partner-social_feedback-affective,n/a,n/a,n/a
0,119.53122027587256,0.7110137387867326,partner-social_choice-star,0.7110137387867326,n/a,n/a
1,124.78105927875481,1.5,partner-social_feedback-informative,n/a,n/a,80
2,128.01282893786515,1.5875025278646717,partner-social_feedback-partner,n/a,1.5875025278646717,n/a
3,133.7799216023575,1.5,partner-social_feedback-affective,n/a,n/a,n/a
0,0.0,0.0,partner-social_choice-na,0.0,n/a,n/a
1,0.0,1.5,partner-social_feedback-informative,n/a,n/a,48
2,137.2794248060261,1.632566361713998,partner-social_feedback-partner,n/a,1.632566361713998,n/a
3,142.0296739355815,1.5,partner-social_feedback-affective,n/a,n/a,n/a
0,152.79707707492457,1.9426433368039397,partner-social_choice-pentagon,1.9426433368039397,n/a,n/a
1,157.03053112409793,1.5,partner-social_feedback-informative,n/a,n/a,48
2,160.2793257027463,1.8652089342158433,partner-social_feedback-partner,n/a,1.8652089342158433,n/a
3,165.0292193769949,1.5,partner-social_feedback-affective,n/a,n/a,n/a
0,169.2967828734902,0.4446266823329097,partner-social_choice-star,0.4446266823329097,n/a,n/a
1,173.53010454116088,1.5,partner-social_feedback-informative,n/a,n/a,79
2,176.7790922066422,1.3341864992075898,partner-social_feedback-partner,n/a,1.3341864992075898,n/a
3,184.52878657724682,1.5,partner-social_feedback-affective,n/a,n/a,n/a
0,188.7962089155651,0.705877555886218,partner-social_choice-star,0.705877555886218,n/a,n/a
1,196.0294033214593,1.5,partner-social_feedback-informative,n/a,n/a,74
2,199.27831163117776,1.1506991535261477,partner-social_feedback-partner,n/a,1.1506991535261477,n/a
3,205.02826052533533,1.5,partner-social_feedback-affective,n/a,n/a,n/a
0,210.04624502792262,0.8094686418571655,partner-non_social_choice-star,0.8094686418571655,n/a,n/a
1,215.27903680388613,1.5,partner-non_social_feedback-informative,n/a,n/a,74
2,219.5278679520104,1.5247182230450562,partner-non_social_feedback-partner,n/a,1.5247182230450562,n/a
3,224.2777597977854,1.5,partner-non_social_feedback-affective,n/a,n/a,n/a
0,228.54517555359803,0.6151969577122145,partner-non_social_choice-star,0.6151969577122145,n/a,n/a
1,232.7787689324748,1.5,partner-non_social_feedback-informative,n/a,n/a,70
2,236.02769479554195,1.6285462792207,partner-non_social_feedback-partner,n/a,1.6285462792207,n/a
3,243.77739684573658,1.5,partner-non_social_feedback-affective,n/a,n/a,n/a
0,249.54492066435046,3.0,partner-non_social_choice-na_lapse,1.2951727194636078,n/a,n/a
1,253.77844053858075,1.5,partner-non_social_feedback-informative_lapse,n/a,n/a,0
2,257.0270954218306,3.0,partner-non_social_feedback-partner_lapse,n/a,0.0,n/a
3,0.0,1.5,partner-non_social_feedback-affective_lapse,n/a,n/a,n/a
0,267.5445838594767,1.0910762799044278,partner-social_choice-star,1.0910762799044278,n/a,n/a
1,272.79410287944415,1.5,partner-social_feedback-informative,n/a,n/a,70
2,277.02664488588675,1.0929051193975283,partner-social_feedback-partner,n/a,1.0929051193975283,n/a
3,281.77648151175276,1.5,partner-social_feedback-affective,n/a,n/a,n/a
0,286.0441053478837,0.3962781781524427,partner-social_choice-star,0.3962781781524427,n/a,n/a
1,293.2939725092622,1.5,partner-social_feedback-informative,n/a,n/a,72
2,296.5262804710585,1.0759540702010781,partner-social_feedback-partner,n/a,1.0759540702010781,n/a
3,302.27595326567257,1.5,partner-social_feedback-affective,n/a,n/a,n/a
0,307.2936869016546,0.6671453611070319,partner-non_social_choice-star,0.6671453611070319,n/a,n/a
1,312.54332733228216,1.5,partner-non_social_feedback-informative,n/a,n/a,68
2,316.7756901482928,1.1491193521642344,partner-non_social_feedback-partner,n/a,1.1491193521642344,n/a
3,322.52556700058244,1.5,partner-non_social_feedback-affective,n/a,n/a,n/a
0,328.29286116288745,0.6807002030705007,partner-non_social_choice-pentagon,0.6807002030705007,n/a,n/a
1,332.5428387640834,1.5,partner-non_social_feedback-informative,n/a,n/a,57
2,336.77531457977443,1.322007400930488,partner-non_social_feedback-partner,n/a,1.322007400930488,n/a
3,341.5252100824971,1.5,partner-non_social_feedback-affective,n/a,n/a,n/a
0,347.29273316972126,0.8633694895738699,partner-social_choice-star,0.8633694895738699,n/a,n/a
1,354.5425257293689,1.5,partner-social_feedback-informative,n/a,n/a,67
2,360.77471118342123,1.3291984226852946,partner-social_feedback-partner,n/a,1.3291984226852946,n/a
3,365.5246725112004,1.5,partner-social_feedback-affective,n/a,n/a,n/a
0,369.79222576824236,0.3866900272478233,partner-non_social_choice-star,0.3866900272478233,n/a,n/a
1,375.0422754113058,1.5,partner-non_social_feedback-informative,n/a,n/a,62
2,378.27437127014196,1.3523063088559866,partner-non_social_feedback-partner,n/a,1.3523063088559866,n/a
3,383.02393728188576,1.5,partner-non_social_feedback-affective,n/a,n/a,n/a
0,388.79157154031714,0.4398448576548617,partner-non_social_choice-pentagon,0.4398448576548617,n/a,n/a
1,394.04145186670735,1.5,partner-non_social_feedback-informative,n/a,n/a,50
2,397.27416318982364,1.2873102821295106,partner-non_social_feedback-partner,n/a,1.2873102821295106,n/a
3,402.04075375541083,1.5,partner-non_social_feedback-affective,n/a,n/a,n/a
0,406.2914173999759,0.959698609006864,partner-social_choice-pentagon,0.959698609006864,n/a,n/a
1,411.5413884186662,1.5,partner-social_feedback-informative,n/a,n/a,50
2,415.77395748652157,1.0740908554003,partner-social_feedback-partner,n/a,1.0740908554003,n/a
3,420.54018308873833,1.5,partner-social_feedback-affective,n/a,n/a,n/a
0,424.7907732286569,0.7772779949395954,partner-non_social_choice-star,0.7772779949395954,n/a,n/a
1,432.0409380655699,1.5,partner-non_social_feedback-informative,n/a,n/a,53
2,435.28975751146186,2.7810369713743057,partner-non_social_feedback-partner,n/a,2.7810369713743057,n/a
3,441.03924892147484,1.5,partner-non_social_feedback-affective,n/a,n/a,n/a
0,446.05729632356065,0.9081513727633137,partner-social_choice-pentagon,0.9081513727633137,n/a,n/a
1,450.2903071506855,1.5,partner-social_feedback-informative,n/a,n/a,46
2,453.53937344054043,2.640003496042027,partner-social_feedback-partner,n/a,2.640003496042027,n/a
3,461.28927881702134,1.5,partner-social_feedback-affective,n/a,n/a,n/a
0,0.0,0.0,partner-non_social_choice-na,0.0,n/a,n/a
1,0.0,1.5,partner-non_social_feedback-informative,n/a,n/a,48
2,465.539385874162,1.6107899701628412,partner-non_social_feedback-partner,n/a,1.6107899701628412,n/a
3,471.28823293000846,1.5,partner-non_social_feedback-affective,n/a,n/a,n/a
0,484.8065226048732,0.8792892795481748,partner-social_choice-star,0.8792892795481748,n/a,n/a
1,489.0395853606535,1.5,partner-social_feedback-informative,n/a,n/a,50
2,495.2887214982077,1.2770181688129014,partner-social_feedback-partner,n/a,1.2770181688129014,n/a
3,500.0385182633447,1.5,partner-social_feedback-affective,n/a,n/a,n/a
0,504.3059040321871,3.0,partner-social_choice-na_lapse,1.190494057277192,n/a,n/a
1,509.5392717773973,1.5,partner-social_feedback-informative_lapse,n/a,n/a,0
2,512.7880513625603,3.0,partner-social_feedback-partner_lapse,n/a,0.0,n/a
3,0.0,1.5,partner-social_feedback-affective_lapse,n/a,n/a,n/a
0,521.8054474622793,1.2687651694755004,partner-non_social_choice-pentagon,1.2687651694755004,n/a,n/a
1,529.0387698613397,1.5,partner-non_social_feedback-informative,n/a,n/a,45
2,533.2876960901015,1.096345210002255,partner-non_social_feedback-partner,n/a,1.096345210002255,n/a
3,541.0373754672207,1.5,partner-non_social_feedback-affective,n/a,n/a,n/a
0,546.0549664822468,0.36468653925157923,partner-non_social_choice-star,0.36468653925157923,n/a,n/a
1,550.2881627166146,1.5,partner-non_social_feedback-informative,n/a,n/a,49
2,556.5372922716631,1.2422603446821086,partner-non_social_feedback-partner,n/a,1.2422603446821086,n/a
3,561.2872605476425,1.5,partner-non_social_feedback-affective,n/a,n/a,n/a
0,566.3046566473615,0.3807438304547759,partner-non_social_choice-star,0.3807438304547759,n/a,n/a
1,570.5543782622256,1.5,partner-non_social_feedback-informative,n/a,n/a,49
2,573.786694635002,1.1544292400753875,partner-non_social_feedback-partner,n/a,1.1544292400753875,n/a
3,578.5362452875659,1.5,partner-non_social_feedback-affective,n/a,n/a,n/a
0,584.3041849011217,1.371757613124828,partner-social_choice-star,1.371757613124828,n/a,n/a
1,589.5531974338467,1.5,partner-social_feedback-informative,n/a,n/a,46
2,595.78627884006,1.2506204925834936,partner-social_feedback-partner,n/a,1.2506204925834936,n/a
3,601.5362924621897,1.5,partner-social_feedback-affective,n/a,n/a,n/a
0,0.0,0.0,partner-non_social_choice-na,0.0,n/a,n/a
1,0.0,1.5,partner-non_social_feedback-informative,n/a,n/a,44
2,605.0362206031698,1.400396998231372,partner-non_social_feedback-partner,n/a,1.400396998231372,n/a
3,609.7858330581478,1.5,partner-non_social_feedback-affective,n/a,n/a,n/a
0,621.5534245302927,1.2890257562476108,partner-social_choice-pentagon,1.2890257562476108,n/a,n/a
1,628.8032145300765,1.5,partner-social_feedback-informative,n/a,n/a,42
2,633.0357283780229,1.5756229335961507,partner-social_feedback-partner,n/a,1.5756229335961507,n/a
3,640.7846591779692,1.5,partner-social_feedback-affective,n/a,n/a,n/a
0,n/a,n/a,partner-social_choice-star_catch,0.5260610542031827,n/a,n/a
1,650.3028095231305,1.5,partner-social_feedback-informative_catch,n/a,n/a,42
2,0.0,0.0,partner-social_feedback-partner_catch,n/a,0.0,n/a
3,0.0,1.5,partner-social_feedback-affective_catch,n/a,n/a,n/a
0,663.8023500276647,0.9671042935856349,partner-non_social_choice-pentagon,0.9671042935856349,n/a,n/a
1,669.0525379033477,1.5,partner-non_social_feedback-informative,n/a,n/a,39
2,673.2844922383117,1.0318556705178707,partner-non_social_feedback-partner,n/a,1.0318556705178707,n/a
3,681.0344630741545,1.5,partner-non_social_feedback-affective,n/a,n/a,n/a
0,n/a,n/a,partner-non_social_choice-star_catch,0.8431754592488687,n/a,n/a
1,689.5517357518922,1.5,partner-non_social_feedback-informative_catch,n/a,n/a,42
2,0.0,0.0,partner-non_social_feedback-partner_catch,n/a,0.0,n/a
3,0.0,1.5,partner-non_social_feedback-affective_catch,n/a,n/a,n/a
0,701.8017155472569,1.0120229466151613,partner-non_social_choice-star,1.0120229466151613,n/a,n/a
1,706.051366948727,1.5,partner-non_social_feedback-informative,n/a,n/a,44
2,712.283557156811,1.2670968699817422,partner-non_social_feedback-partner,n/a,1.2670968699817422,n/a
3,718.0497140084133,1.5,partner-non_social_feedback-affective,n/a,n/a,n/a
0,723.0677003394742,1.248866986210487,partner-non_social_choice-star,1.248866986210487,n/a,n/a
1,727.3009667872363,1.5,partner-non_social_feedback-informative,n/a,n/a,42
2,731.5498736341758,1.3766359812193514,partner-non_social_feedback-partner,n/a,1.3766359812193514,n/a
3,736.2999026154855,1.5,partner-non_social_feedback-affective,n/a,n/a,n/a
0,n/a,n/a,partner-social_choice-pentagon_catch,0.9647923713146156,n/a,n/a
1,744.7998453842554,1.5,partner-social_feedback-informative_catch,n/a,n/a,39
2,0.0,0.0,partner-social_feedback-partner_catch,n/a,0.0,n/a
3,0.0,1.5,partner-social_feedback-affective_catch,n/a,n/a,n/a
0,760.8165320361406,0.45730349117775404,partner-non_social_choice-star,0.45730349117775404,n/a,n/a
1,768.0501374829448,1.5,partner-non_social_feedback-informative,n/a,n/a,36
2,774.2989916698391,1.6647061770599976,partner-non_social_feedback-partner,n/a,1.6647061770599976,n/a
3,779.0490864762053,1.5,partner-non_social_feedback-affective,n/a,n/a,n/a
