index,onset,duration,trial_type,choice_RT,partner_RT,points
0,4.815885122110785,0.529106194466749,partner-non_social_choice-star,0.529106194466749,n/a,n/a
1,8.796450274106519,1.5,partner-non_social_feedback-informative,n/a,n/a,78
2,12.282082675539868,1.5978268223211671,partner-non_social_feedback-partner,n/a,1.5978268223211671,n/a
3,17.299106132298675,1.5,partner-non_social_feedback-affective,n/a,n/a,n/a
0,n/a,n/a,partner-social_choice-star_catch,0.5297980889522478,n/a,n/a
1,28.285014816123066,1.5,partner-social_feedback-informative_catch,n/a,n/a,77
2,0.0,0.0,partner-social_feedback-partner_catch,n/a,0.0,n/a
3,0.0,1.5,partner-social_feedback-affective_catch,n/a,n/a,n/a
0,41.04829840399839,0.5570076075480301,partner-non_social_choice-star,0.5570076075480301,n/a,n/a
1,45.03135320591787,1.5,partner-non_social_feedback-informative,n/a,n/a,76
2,51.531154450816075,2.0169481236384854,partner-non_social_feedback-partner,n/a,2.0169481236384854,n/a
3,56.53150515209063,1.5,partner-non_social_feedback-affective,n/a,n/a,n/a
0,60.5478648728606,0.5301352595208755,partner-non_social_choice-star,0.5301352595208755,n/a,n/a
1,65.53078400202435,1.5,partner-non_social_feedback-informative,n/a,n/a,73
2,69.03066423699056,1.153227932789605,partner-non_social_feedback-partner,n/a,1.153227932789605,n/a
3,75.03124386318473,1.5,partner-non_social_feedback-affective,n/a,n/a,n/a
0,79.0474448724292,0.6782171356519484,partner-non_social_choice-star,0.6782171356519484,n/a,n/a
1,84.0304642019571,1.5,partner-non_social_feedback-informative,n/a,n/a,76
2,90.53018353122889,1.2782469032051722,partner-non_social_feedback-partner,n/a,1.2782469032051722,n/a
3,95.53041428462234,1.5,partner-non_social_feedback-affective,n/a,n/a,n/a
0,0.0,0.0,partner-non_social_choice-na,0.0,n/a,n/a
1,0.0,1.5,partner-non_social_feedback-informative,n/a,n/a,76
2,98.79656766212429,2.270735898535804,partner-non_social_feedback-partner,n/a,2.270735898535804,n/a
3,104.79696700080194,1.5,partner-non_social_feedback-affective,n/a,n/a,n/a
0,119.29644862848,0.6124253571283589,partner-social_choice-star,0.6124253571283589,n/a,n/a
1,126.27933594219962,1.5,partner-social_feedback-informative,n/a,n/a,81
2,130.7791145140227,1.7385121562422228,partner-social_feedback-partner,n/a,1.7385121562422228,n/a
3,138.7960132688686,1.5,partner-social_feedback-affective,n/a,n/a,n/a
0,143.54587147072561,0.5725265960656998,partner-non_social_choice-star,0.5725265960656998,n/a,n/a
1,148.52874013401242,1.5,partner-non_social_feedback-informative,n/a,n/a,82
2,152.02855344683758,1.4947235731594901,partner-non_social_feedback-partner,n/a,1.4947235731594901,n/a
3,157.04560103945073,1.5,partner-non_social_feedback-affective,n/a,n/a,n/a
0,161.79549288522549,0.5896359910930187,partner-non_social_choice-star,0.5896359910930187,n/a,n/a
1,168.77825001161068,1.5,partner-non_social_feedback-informative,n/a,n/a,82
2,173.27805198789838,1.2309428232586015,partner-non_social_feedback-partner,n/a,1.2309428232586015,n/a
3,179.2950962892587,1.5,partner-non_social_feedback-affective,n/a,n/a,n/a
0,183.29489113449836,0.6529037443851848,partner-social_choice-star,0.6529037443851848,n/a,n/a
1,188.2779269202906,1.5,partner-social_feedback-informative,n/a,n/a,77
2,192.77753288418694,1.3221094297684886,partner-social_feedback-partner,n/a,1.3221094297684886,n/a
3,198.7948280521523,1.5,partner-social_feedback-affective,n/a,n/a,n/a
0,203.54432092494426,0.6530829348175757,partner-social_choice-star,0.6530829348175757,n/a,n/a
1,207.52738742909628,1.5,partner-social_feedback-informative,n/a,n/a,78
2,211.02725815599865,1.4250360483608802,partner-social_feedback-partner,n/a,1.4250360483608802,n/a
3,216.04414667139145,1.5,partner-social_feedback-affective,n/a,n/a,n/a
0,220.04408267480835,0.5951938200510085,partner-social_choice-star,0.5951938200510085,n/a,n/a
1,227.0277642775461,1.5,partner-social_feedback-informative,n/a,n/a,79
2,231.52677196481568,1.466118929055483,partner-social_feedback-partner,n/a,1.466118929055483,n/a
3,236.54385429843092,1.5,partner-social_feedback-affective,n/a,n/a,n/a
0,241.2935537887622,0.4902061457930813,partner-social_choice-star,0.4902061457930813,n/a,n/a
1,245.29308862502785,1.5,partner-social_feedback-informative,n/a,n/a,82
2,248.79288840714685,1.030873414393227,partner-social_feedback-partner,n/a,1.030873414393227,n/a
3,256.79335686213403,1.5,partner-social_feedback-affective,n/a,n/a,n/a
0,262.30980965222057,0.5606821084936655,partner-non_social_choice-star,0.5606821084936655,n/a,n/a
1,266.29265637382196,1.5,partner-non_social_feedback-informative,n/a,n/a,80
2,270.7923226773537,1.0930268957527005,partner-non_social_feedback-partner,n/a,1.0930268957527005,n/a
3,275.7928130740265,1.5,partner-non_social_feedback-affective,n/a,n/a,n/a
0,279.8092283804001,0.5478604845236532,partner-non_social_choice-star,0.5478604845236532,n/a,n/a
1,284.79225831507597,1.5,partner-non_social_feedback-informative,n/a,n/a,82
2,289.2919337609767,1.4408907446679677,partner-non_social_feedback-partner,n/a,1.4408907446679677,n/a
3,295.2921773136866,1.5,partner-non_social_feedback-affective,n/a,n/a,n/a
0,299.30879814051514,0.48297928595161466,partner-social_choice-star,0.48297928595161466,n/a,n/a
1,303.2917143441209,1.5,partner-social_feedback-informative,n/a,n/a,75
2,306.7915324109779,1.045191095625114,partner-social_feedback-partner,n/a,1.045191095625114,n/a
3,311.7919701476053,1.5,partner-social_feedback-affective,n/a,n/a,n/a
0,0.0,0.0,partner-non_social_choice-na,0.0,n/a,n/a
1,0.0,1.5,partner-non_social_feedback-informative,n/a,n/a,61
2,315.79125996838206,1.314146060681196,partner-non_social_feedback-partner,n/a,1.314146060681196,n/a
3,323.7918790896101,1.5,partner-non_social_feedback-affective,n/a,n/a,n/a
0,336.80792065593937,0.5982246982193828,partner-social_choice-star,0.5982246982193828,n/a,n/a
1,341.7907267854223,1.5,partner-social_feedback-informative,n/a,n/a,79
2,345.29069917546803,1.0363072728277984,partner-social_feedback-partner,n/a,1.0363072728277984,n/a
3,351.29103122630977,1.5,partner-social_feedback-affective,n/a,n/a,n/a
0,356.05733801276347,0.6123039464682734,partner-social_choice-star,0.6123039464682734,n/a,n/a
1,360.0402820091708,1.5,partner-social_feedback-informative,n/a,n/a,84
2,363.5401278688296,1.2114575093773965,partner-social_feedback-partner,n/a,1.2114575093773965,n/a
3,368.5404533371657,1.5,partner-social_feedback-affective,n/a,n/a,n/a
0,n/a,n/a,partner-social_choice-star_catch,0.5754755586078772,n/a,n/a
1,377.5398674941607,1.5,partner-social_feedback-informative_catch,n/a,n/a,79
2,0.0,0.0,partner-social_feedback-partner_catch,n/a,0.0,n/a
3,0.0,1.5,partner-social_feedback-affective_catch,n/a,n/a,n/a
0,389.8066089088363,0.5206198818732446,partner-non_social_choice-star,0.5206198818732446,n/a,n/a
1,394.7893250774084,1.5,partner-non_social_feedback-informative,n/a,n/a,82
2,401.28913985301256,1.150784726100028,partner-non_social_feedback-partner,n/a,1.150784726100028,n/a
3,406.29025558772446,1.5,partner-non_social_feedback-affective,n/a,n/a,n/a
0,410.30602909979484,0.4167073502085259,partner-non_social_choice-star,0.4167073502085259,n/a,n/a
1,414.2890257562476,1.5,partner-non_social_feedback-informative,n/a,n/a,79
2,420.78869279116884,1.4949144658241948,partner-non_social_feedback-partner,n/a,1.4949144658241948,n/a
3,425.80576013129894,1.5,partner-non_social_feedback-affective,n/a,n/a,n/a
0,0.0,0.0,partner-social_choice-na,0.0,n/a,n/a
1,0.0,1.5,partner-social_feedback-informative,n/a,n/a,79
2,430.5385158863289,1.1578718905432197,partner-social_feedback-partner,n/a,1.1578718905432197,n/a
3,435.55570244295063,1.5,partner-social_feedback-affective,n/a,n/a,n/a
0,447.5550379755723,0.6342624540093311,partner-non_social_choice-star,0.6342624540093311,n/a,n/a
1,451.537896399406,1.5,partner-non_social_feedback-informative,n/a,n/a,78
2,458.037883417242,1.2181032802452592,partner-non_social_feedback-partner,n/a,1.2181032802452592,n/a
3,463.0546870914502,1.5,partner-non_social_feedback-affective,n/a,n/a,n/a
0,467.80487259011716,0.6047768512291896,partner-non_social_choice-star,0.6047768512291896,n/a,n/a
1,471.78757157103564,1.5,partner-non_social_feedback-informative,n/a,n/a,75
2,475.2873099164351,1.9722708291508297,partner-non_social_feedback-partner,n/a,1.9722708291508297,n/a
3,483.30430631178183,1.5,partner-non_social_feedback-affective,n/a,n/a,n/a
0,487.3042309786613,0.5991502716562991,partner-social_choice-star,0.5991502716562991,n/a,n/a
1,491.2869548268234,1.5,partner-social_feedback-informative,n/a,n/a,78
2,494.78692063436324,1.2712431171676144,partner-social_feedback-partner,n/a,1.2712431171676144,n/a
3,502.80382487463066,1.5,partner-social_feedback-affective,n/a,n/a,n/a
0,507.55376572350315,0.5773442588299531,partner-social_choice-star,0.5773442588299531,n/a,n/a
1,512.5531264890633,1.5,partner-social_feedback-informative,n/a,n/a,76
2,516.0365113305036,1.148359438453781,partner-social_feedback-partner,n/a,1.148359438453781,n/a
3,524.0531924969673,1.5,partner-social_feedback-affective,n/a,n/a,n/a
0,528.06992120375,0.7306102238746917,partner-social_choice-star,0.7306102238746917,n/a,n/a
1,532.0527127054427,1.5,partner-social_feedback-informative,n/a,n/a,75
2,536.5526020827779,1.8959053523449256,partner-social_feedback-partner,n/a,1.8959053523449256,n/a
3,541.5528529493831,1.5,partner-social_feedback-affective,n/a,n/a,n/a
0,546.3193484343326,0.5509396344002653,partner-social_choice-star,0.5509396344002653,n/a,n/a
1,550.3023805631772,1.5,partner-social_feedback-informative,n/a,n/a,76
2,554.801990549716,1.4781144485632467,partner-social_feedback-partner,n/a,1.4781144485632467,n/a
3,560.8026005285751,1.5,partner-social_feedback-affective,n/a,n/a,n/a
0,564.8189258740379,0.5649446466127301,partner-non_social_choice-star,0.5649446466127301,n/a,n/a
1,568.8017001880767,1.5,partner-non_social_feedback-informative,n/a,n/a,78
2,572.3016268662775,1.3932253582986505,partner-non_social_feedback-partner,n/a,1.3932253582986505,n/a
3,577.3020975154332,1.5,partner-non_social_feedback-affective,n/a,n/a,n/a
0,582.0685253468523,0.7120848587376258,partner-social_choice-star,0.7120848587376258,n/a,n/a
1,586.0516302489539,1.5,partner-social_feedback-informative,n/a,n/a,80
2,592.5512329215976,1.2474813687661026,partner-social_feedback-partner,n/a,1.2474813687661026,n/a
3,598.5515057298883,1.5,partner-social_feedback-affective,n/a,n/a,n/a
0,602.5680230650996,0.45125672832637065,partner-social_choice-star,0.45125672832637065,n/a,n/a
1,609.5507513015991,1.5,partner-social_feedback-informative,n/a,n/a,79
2,613.0505459639912,1.4195773226824713,partner-social_feedback-partner,n/a,1.4195773226824713,n/a
3,619.050922629594,1.5,partner-social_feedback-affective,n/a,n/a,n/a
0,n/a,n/a,partner-social_choice-star_catch,0.6704303971332592,n/a,n/a
1,629.5503870696184,1.5,partner-social_feedback-informative_catch,n/a,n/a,75
2,0.0,0.0,partner-social_feedback-partner_catch,n/a,0.0,n/a
3,0.0,1.5,partner-social_feedback-affective_catch,n/a,n/a,n/a
0,641.0671064511848,0.7854563925452567,partner-non_social_choice-star,0.7854563925452567,n/a,n/a
1,648.0498262767042,1.5,partner-non_social_feedback-informative,n/a,n/a,68
2,654.5497306475245,1.7175808852812224,partner-non_social_feedback-partner,n/a,1.7175808852812224,n/a
3,662.5499884623305,1.5,partner-non_social_feedback-affective,n/a,n/a,n/a
0,666.5663335553099,0.41987865516466627,partner-non_social_choice-pentagon,0.41987865516466627,n/a,n/a
1,670.5493591016489,1.5,partner-non_social_feedback-informative,n/a,n/a,55
2,677.0490334504652,1.1038126969951918,partner-non_social_feedback-partner,n/a,1.1038126969951918,n/a
3,683.0503740874542,1.5,partner-non_social_feedback-affective,n/a,n/a,n/a
0,687.0660543473609,0.6087914483014174,partner-social_choice-pentagon,0.6087914483014174,n/a,n/a
1,691.0487558881428,1.5,partner-social_feedback-informative,n/a,n/a,58
2,694.5485538417879,1.5870655226271992,partner-social_feedback-partner,n/a,1.5870655226271992,n/a
3,699.5655001369528,1.5,partner-social_feedback-affective,n/a,n/a,n/a
0,704.315615056531,0.3799495414368721,partner-social_choice-star,0.3799495414368721,n/a,n/a
1,708.2984632409111,1.5,partner-social_feedback-informative,n/a,n/a,64
2,712.7983749256268,1.266979481963972,partner-social_feedback-partner,n/a,1.266979481963972,n/a
3,717.8153501106776,1.5,partner-social_feedback-affective,n/a,n/a,n/a
0,721.8152009072155,0.6888705553919863,partner-non_social_choice-star,0.6888705553919863,n/a,n/a
1,728.7978457653094,1.5,partner-non_social_feedback-informative,n/a,n/a,62
2,733.2977380682028,1.1302791238390455,partner-non_social_feedback-partner,n/a,1.1302791238390455,n/a
3,739.3148745246426,1.5,partner-non_social_feedback-affective,n/a,n/a,n/a
0,744.8146318861695,0.7530521798880727,partner-non_social_choice-star,0.7530521798880727,n/a,n/a
1,749.797269430368,1.5,partner-non_social_feedback-informative,n/a,n/a,61
2,753.2972070794117,1.0943766751101975,partner-non_social_feedback-partner,n/a,1.0943766751101975,n/a
3,761.3142078630954,1.5,partner-non_social_feedback-affective,n/a,n/a,n/a
0,765.3140787728453,0.3522459692208031,partner-non_social_choice-pentagon,0.3522459692208031,n/a,n/a
1,769.2968344364517,1.5,partner-non_social_feedback-informative,n/a,n/a,52
2,772.7966517719192,1.4685899285468622,partner-non_social_feedback-partner,n/a,1.4685899285468622,n/a
3,777.8137611669467,1.5,partner-non_social_feedback-affective,n/a,n/a,n/a
