index,onset,duration,trial_type,choice_RT,partner_RT,points
0,4.783986606746112,0.5012742680501105,partner-non_social_choice-star,0.5012742680501105,n/a,n/a
1,8.766288378434183,1.5,partner-non_social_feedback-informative,n/a,n/a,39
2,15.26622456446512,1.479064081292563,partner-non_social_feedback-partner,n/a,1.479064081292563,n/a
3,21.282743788560765,1.5,partner-non_social_feedback-affective,n/a,n/a,n/a
0,25.283318662824968,0.7226531544401951,partner-non_social_choice-pentagon,0.7226531544401951,n/a,n/a
1,29.265835098121897,1.5,partner-non_social_feedback-informative,n/a,n/a,46
2,32.76593840726946,1.4661319702136097,partner-non_social_feedback-partner,n/a,1.4661319702136097,n/a
3,37.78242069605858,1.5,partner-non_social_feedback-affective,n/a,n/a,n/a
0,41.78288439870994,3.0,partner-social_choice-na_lapse,0.0,n/a,n/a
1,0.0,1.5,partner-social_feedback-informative_lapse,n/a,n/a,0
2,0.0,3.0,partner-social_feedback-partner_lapse,n/a,0.0,n/a
3,0.0,1.5,partner-social_feedback-affective_lapse,n/a,n/a,n/a
0,63.032862182672034,0.4467540997275137,partner-social_choice-star,0.4467540997275137,n/a,n/a
1,67.01507947856135,1.5,partner-social_feedback-informative,n/a,n/a,41
2,71.51512500772515,1.0534409991405482,partner-social_feedback-partner,n/a,1.0534409991405482,n/a
3,79.53156158450292,1.5,partner-social_feedback-affective,n/a,n/a,n/a
0,85.03252976491967,3.0,partner-social_choice-na_lapse,1.721756833305335,n/a,n/a
1,90.014457063804,1.5,partner-social_feedback-informative_lapse,n/a,n/a,0
2,94.5145022272718,3.0,partner-social_feedback-partner_lapse,n/a,0.0,n/a
3,0.0,1.5,partner-social_feedback-affective_lapse,n/a,n/a,n/a
0,104.28197436397204,0.38697631861759874,partner-social_choice-star,0.38697631861759874,n/a,n/a
1,109.26424212592337,1.5,partner-social_feedback-informative,n/a,n/a,41
2,115.76418452878806,1.231706144169948,partner-social_feedback-partner,n/a,1.231706144169948,n/a
3,123.78051797926582,1.5,partner-social_feedback-affective,n/a,n/a,n/a
0,129.28165803684806,0.8418302211985065,partner-social_choice-pentagon,0.8418302211985065,n/a,n/a
1,136.263884840836,1.5,partner-social_feedback-informative,n/a,n/a,41
2,140.76358880984571,0.9848660327206744,partner-social_feedback-partner,n/a,0.9848660327206744,n/a
3,148.78052456179557,1.5,partner-social_feedback-affective,n/a,n/a,n/a
0,154.28134097833208,3.0,partner-non_social_choice-na_lapse,0.6788954222529355,n/a,n/a
1,159.28012613589817,1.5,partner-non_social_feedback-informative_lapse,n/a,n/a,0
2,163.7635101851847,3.0,partner-non_social_feedback-partner_lapse,n/a,0.0,n/a
3,0.0,1.5,partner-non_social_feedback-affective_lapse,n/a,n/a,n/a
0,173.53083823762245,0.34524308002437465,partner-non_social_choice-star,0.34524308002437465,n/a,n/a
1,177.52985853777864,1.5,partner-non_social_feedback-informative,n/a,n/a,52
2,182.01310362254935,1.3857051589839102,partner-non_social_feedback-partner,n/a,1.3857051589839102,n/a
3,190.04633808384733,1.5,partner-non_social_feedback-affective,n/a,n/a,n/a
0,0.0,0.0,partner-non_social_choice-na,0.0,n/a,n/a
1,0.0,1.5,partner-non_social_feedback-informative,n/a,n/a,36
2,194.02927580104824,1.6613515176932196,partner-non_social_feedback-partner,n/a,1.6613515176932196,n/a
3,199.04573578237614,1.5,partner-non_social_feedback-affective,n/a,n/a,n/a
0,213.546780758973,3.0,partner-non_social_choice-na_lapse,2.1405136055400362,n/a,n/a
1,218.52869013874897,1.5,partner-non_social_feedback-informative_lapse,n/a,n/a,0
2,225.02913244817864,3.0,partner-non_social_feedback-partner_lapse,n/a,0.0,n/a
3,0.0,1.5,partner-non_social_feedback-affective_lapse,n/a,n/a,n/a
0,234.04641049167458,3.0,partner-social_choice-na_lapse,0.4607032116527989,n/a,n/a
1,238.02862522769192,1.5,partner-social_feedback-informative_lapse,n/a,n/a,0
2,242.52845536185487,3.0,partner-social_feedback-partner_lapse,n/a,0.0,n/a
3,0.0,1.5,partner-social_feedback-affective_lapse,n/a,n/a,n/a
0,252.29620542758857,0.000713838781848608,partner-non_social_choice-pentagon,0.000713838781848608,n/a,n/a
1,256.2781440630515,1.5,partner-non_social_feedback-informative,n/a,n/a,33
2,259.77841961506147,1.1443102624198218,partner-non_social_feedback-partner,n/a,1.1443102624198218,n/a
3,264.79464481949435,1.5,partner-non_social_feedback-affective,n/a,n/a,n/a
0,268.7955660079624,3.0,partner-non_social_choice-na_lapse,0.0,n/a,n/a
1,0.0,1.5,partner-non_social_feedback-informative_lapse,n/a,n/a,0
2,0.0,3.0,partner-non_social_feedback-partner_lapse,n/a,0.0,n/a
3,0.0,1.5,partner-non_social_feedback-affective_lapse,n/a,n/a,n/a
0,289.295403456048,3.0,partner-non_social_choice-na_lapse,0.0,n/a,n/a
1,0.0,1.5,partner-non_social_feedback-informative_lapse,n/a,n/a,0
2,0.0,3.0,partner-non_social_feedback-partner_lapse,n/a,0.0,n/a
3,0.0,1.5,partner-non_social_feedback-affective_lapse,n/a,n/a,n/a
0,n/a,n/a,partner-social_choice-star_catch,1.0489787753640485,n/a,n/a
1,314.777483798749,1.5,partner-social_feedback-informative_catch,n/a,n/a,48
2,0.0,0.0,partner-social_feedback-partner_catch,n/a,0.0,n/a
3,0.0,1.5,partner-social_feedback-affective_catch,n/a,n/a,n/a
0,326.5445734173318,0.7331764253285655,partner-non_social_choice-pentagon,0.7331764253285655,n/a,n/a
1,333.52693808874756,1.5,partner-non_social_feedback-informative,n/a,n/a,31
2,337.02693498033113,2.733830655645761,partner-non_social_feedback-partner,n/a,2.733830655645761,n/a
3,342.04365131462237,1.5,partner-non_social_feedback-affective,n/a,n/a,n/a
0,346.794338366165,3.0,partner-social_choice-na_lapse,0.5231326551620441,n/a,n/a
1,350.77662587570467,1.5,partner-social_feedback-informative_lapse,n/a,n/a,0
2,354.2763430097739,3.0,partner-social_feedback-partner_lapse,n/a,0.0,n/a
3,0.0,1.5,partner-social_feedback-affective_lapse,n/a,n/a,n/a
0,363.2941121831291,3.0,partner-social_choice-na_lapse,0.0,n/a,n/a
1,0.0,1.5,partner-social_feedback-informative_lapse,n/a,n/a,0
2,0.0,3.0,partner-social_feedback-partner_lapse,n/a,0.0,n/a
3,0.0,1.5,partner-social_feedback-affective_lapse,n/a,n/a,n/a
0,383.54385884715794,0.31926549207491917,partner-social_choice-pentagon,0.31926549207491917,n/a,n/a
1,387.525949612198,1.5,partner-social_feedback-informative,n/a,n/a,31
2,391.02587555873833,1.3900777872167964,partner-social_feedback-partner,n/a,1.3900777872167964,n/a
3,396.0433989843159,1.5,partner-social_feedback-affective,n/a,n/a,n/a
0,401.54326605378446,3.0,partner-social_choice-na_lapse,0.0,n/a,n/a
1,0.0,1.5,partner-social_feedback-informative_lapse,n/a,n/a,0
2,0.0,3.0,partner-social_feedback-partner_lapse,n/a,0.0,n/a
3,0.0,1.5,partner-social_feedback-affective_lapse,n/a,n/a,n/a
0,419.79307781171883,0.29837473683619464,partner-social_choice-star,0.29837473683619464,n/a,n/a
1,423.7750800783033,1.5,partner-social_feedback-informative,n/a,n/a,50
2,428.27540426789255,1.4458870342814407,partner-social_feedback-partner,n/a,1.4458870342814407,n/a
3,434.2919633528627,1.5,partner-social_feedback-affective,n/a,n/a,n/a
0,439.79283937786295,3.0,partner-social_choice-na_lapse,0.0,n/a,n/a
1,0.0,1.5,partner-social_feedback-informative_lapse,n/a,n/a,0
2,0.0,3.0,partner-social_feedback-partner_lapse,n/a,0.0,n/a
3,0.0,1.5,partner-social_feedback-affective_lapse,n/a,n/a,n/a
0,n/a,n/a,partner-social_choice-pentagon_catch,0.5324553457639922,n/a,n/a
1,464.04128599226715,1.5,partner-social_feedback-informative_catch,n/a,n/a,40
2,0.0,0.0,partner-social_feedback-partner_catch,n/a,0.0,n/a
3,0.0,1.5,partner-social_feedback-affective_catch,n/a,n/a,n/a
0,477.2920299095522,0.658698758205901,partner-non_social_choice-star,0.658698758205901,n/a,n/a
1,482.29094927758615,1.5,partner-non_social_feedback-informative,n/a,n/a,53
2,485.7740707570747,1.3894586637243265,partner-non_social_feedback-partner,n/a,1.3894586637243265,n/a
3,490.79032850846124,1.5,partner-non_social_feedback-affective,n/a,n/a,n/a
0,495.5582936034998,3.0,partner-social_choice-na_lapse,0.44122660322045704,n/a,n/a
1,500.54007498964165,1.5,partner-social_feedback-informative_lapse,n/a,n/a,0
2,504.0404807294617,3.0,partner-social_feedback-partner_lapse,n/a,0.0,n/a
3,0.0,1.5,partner-social_feedback-affective_lapse,n/a,n/a,n/a
0,513.0578977374753,3.0,partner-non_social_choice-na_lapse,0.37127296251492226,n/a,n/a
1,517.0401761046123,1.5,partner-non_social_feedback-informative_lapse,n/a,n/a,0
2,520.5404454397876,3.0,partner-non_social_feedback-partner_lapse,n/a,0.0,n/a
3,0.0,1.5,partner-non_social_feedback-affective_lapse,n/a,n/a,n/a
0,n/a,n/a,partner-non_social_choice-star_catch,0.6023917987531604,n/a,n/a
1,534.5399250542423,1.5,partner-non_social_feedback-informative_catch,n/a,n/a,62
2,0.0,0.0,partner-non_social_feedback-partner_catch,n/a,0.0,n/a
3,0.0,1.5,partner-non_social_feedback-affective_catch,n/a,n/a,n/a
0,549.0575784847824,3.0,partner-social_choice-na_lapse,0.482128614586145,n/a,n/a
1,554.0395734374442,1.5,partner-social_feedback-informative_lapse,n/a,n/a,0
2,557.5395012124654,3.0,partner-social_feedback-partner_lapse,n/a,0.0,n/a
3,0.0,1.5,partner-social_feedback-affective_lapse,n/a,n/a,n/a
0,567.3069184947508,0.8783705752148308,partner-social_choice-star,0.8783705752148308,n/a,n/a
1,574.2892052728994,1.5,partner-social_feedback-informative,n/a,n/a,60
2,577.7891293909588,1.350046498258962,partner-social_feedback-partner,n/a,1.350046498258962,n/a
3,585.8055981489924,1.5,partner-social_feedback-affective,n/a,n/a,n/a
0,591.3065981449699,3.0,partner-non_social_choice-na_lapse,0.5415783662965623,n/a,n/a
1,595.2887759456808,1.5,partner-non_social_feedback-informative_lapse,n/a,n/a,0
2,601.7886956753873,3.0,partner-non_social_feedback-partner_lapse,n/a,0.0,n/a
3,0.0,1.5,partner-non_social_feedback-affective_lapse,n/a,n/a,n/a
0,613.3061991705281,3.0,partner-non_social_choice-na_lapse,0.0,n/a,n/a
1,0.0,1.5,partner-non_social_feedback-informative_lapse,n/a,n/a,0
2,0.0,3.0,partner-non_social_feedback-partner_lapse,n/a,0.0,n/a
3,0.0,1.5,partner-non_social_feedback-affective_lapse,n/a,n/a,n/a
0,629.8059053337138,3.0,partner-non_social_choice-na_lapse,0.0,n/a,n/a
1,0.0,1.5,partner-non_social_feedback-informative_lapse,n/a,n/a,0
2,0.0,3.0,partner-non_social_feedback-partner_lapse,n/a,0.0,n/a
3,0.0,1.5,partner-non_social_feedback-affective_lapse,n/a,n/a,n/a
0,0.0,3.0,partner-social_choice-na_lapse,0.0,n/a,n/a
1,0.0,1.5,partner-social_feedback-informative_lapse,n/a,n/a,0
2,647.5377242951299,3.0,partner-social_feedback-partner_lapse,n/a,0.0,n/a
3,0.0,1.5,partner-social_feedback-affective_lapse,n/a,n/a,n/a
0,659.5552213905885,3.0,partner-non_social_choice-na_lapse,0.0,n/a,n/a
1,0.0,1.5,partner-non_social_feedback-informative_lapse,n/a,n/a,0
2,0.0,3.0,partner-non_social_feedback-partner_lapse,n/a,0.0,n/a
3,0.0,1.5,partner-non_social_feedback-affective_lapse,n/a,n/a,n/a
0,679.0550698095567,3.0,partner-non_social_choice-na_lapse,0.0,n/a,n/a
1,0.0,1.5,partner-non_social_feedback-informative_lapse,n/a,n/a,0
2,0.0,3.0,partner-non_social_feedback-partner_lapse,n/a,0.0,n/a
3,0.0,1.5,partner-non_social_feedback-affective_lapse,n/a,n/a,n/a
0,697.5548096167831,3.0,partner-social_choice-na_lapse,0.0,n/a,n/a
1,0.0,1.5,partner-social_feedback-informative_lapse,n/a,n/a,0
2,0.0,3.0,partner-social_feedback-partner_lapse,n/a,0.0,n/a
3,0.0,1.5,partner-social_feedback-affective_lapse,n/a,n/a,n/a
0,717.054271494977,0.2940489177035488,partner-non_social_choice-pentagon,0.2940489177035488,n/a,n/a
1,721.0366749301793,1.5,partner-non_social_feedback-informative,n/a,n/a,62
2,727.536404497916,1.4746029546049613,partner-non_social_feedback-partner,n/a,1.4746029546049613,n/a
3,733.5529189679619,1.5,partner-non_social_feedback-affective,n/a,n/a,n/a
0,737.5538050496052,1.269135139701575,partner-social_choice-pentagon,1.269135139701575,n/a,n/a
1,741.536088902184,1.5,partner-social_feedback-informative,n/a,n/a,63
2,745.0358722272467,1.6799994587699985,partner-social_feedback-partner,n/a,1.6799994587699985,n/a
3,751.0694175302278,1.5,partner-social_feedback-affective,n/a,n/a,n/a
0,0.0,3.0,partner-non_social_choice-na_lapse,0.0,n/a,n/a
1,0.0,1.5,partner-non_social_feedback-informative_lapse,n/a,n/a,0
2,754.2860131116677,3.0,partner-non_social_feedback-partner_lapse,n/a,0.0,n/a
3,0.0,1.5,partner-non_social_feedback-affective_lapse,n/a,n/a,n/a
