index,onset,duration,trial_type,choice_RT,partner_RT,points
0,4.783840387402961,0.9747560907371735,partner-social_choice-star,0.9747560907371735,n/a,n/a
1,9.766741597523833,1.5,partner-social_feedback-informative,n/a,n/a,36
2,13.266207134632168,1.3791545210297045,partner-social_feedback-partner,n/a,1.3791545210297045,n/a
3,21.282654622144946,1.5,partner-social_feedback-affective,n/a,n/a,n/a
0,26.033518850284963,0.4588328266636381,partner-social_choice-pentagon,0.4588328266636381,n/a,n/a
1,31.015736576900053,1.5,partner-social_feedback-informative,n/a,n/a,37
2,37.51547345952076,1.4775084923467148,partner-social_feedback-partner,n/a,1.4775084923467148,n/a
3,42.532174007806134,1.5,partner-social_feedback-affective,n/a,n/a,n/a
0,47.28290366027613,0.3809094901816934,partner-non_social_choice-pentagon,0.3809094901816934,n/a,n/a
1,51.26539126962325,1.5,partner-non_social_feedback-informative,n/a,n/a,34
2,55.76500235324602,1.3856949718065152,partner-non_social_feedback-partner,n/a,1.3856949718065152,n/a
3,61.78163122535989,1.5,partner-non_social_feedback-affective,n/a,n/a,n/a
0,65.78218196166745,1.0743435504791705,partner-non_social_choice-pentagon,1.0743435504791705,n/a,n/a
1,69.7647712341577,1.5,partner-non_social_feedback-informative,n/a,n/a,36
2,74.26472753363396,1.4766904331690967,partner-non_social_feedback-partner,n/a,1.4766904331690967,n/a
3,80.28223041622368,1.5,partner-non_social_feedback-affective,n/a,n/a,n/a
0,84.28209108651936,0.6060681194257995,partner-social_choice-star,0.6060681194257995,n/a,n/a
1,88.26464964065053,1.5,partner-social_feedback-informative,n/a,n/a,37
2,91.76414150778146,1.3969276520456333,partner-social_feedback-partner,n/a,1.3969276520456333,n/a
3,99.78079634422284,1.5,partner-social_feedback-affective,n/a,n/a,n/a
0,0.0,0.0,partner-non_social_choice-na,0.0,n/a,n/a
1,0.0,1.5,partner-non_social_feedback-informative,n/a,n/a,37
2,103.01367990957169,1.2711776578053104,partner-non_social_feedback-partner,n/a,1.2711776578053104,n/a
3,109.03063315293639,1.5,partner-non_social_feedback-affective,n/a,n/a,n/a
0,121.53148503887951,1.558038135381139,partner-social_choice-pentagon,1.558038135381139,n/a,n/a
1,125.53057884726513,1.5,partner-social_feedback-informative,n/a,n/a,42
2,130.01282016119148,1.7946415478254494,partner-social_feedback-partner,n/a,1.7946415478254494,n/a
3,136.03018700532994,1.5,partner-social_feedback-affective,n/a,n/a,n/a
0,141.5307891217517,0.9885146246815566,partner-social_choice-star,0.9885146246815566,n/a,n/a
1,145.52972860694808,1.5,partner-social_feedback-informative,n/a,n/a,42
2,152.01331823745386,1.184640015563673,partner-social_feedback-partner,n/a,1.184640015563673,n/a
3,157.02943330843027,1.5,partner-social_feedback-affective,n/a,n/a,n/a
0,162.5470482764631,0.5247686889215402,partner-non_social_choice-star,0.5247686889215402,n/a,n/a
1,169.52918664731442,1.5,partner-non_social_feedback-informative,n/a,n/a,42
2,176.0286927765419,1.380914244212363,partner-non_social_feedback-partner,n/a,1.380914244212363,n/a
3,182.02917000820344,1.5,partner-non_social_feedback-affective,n/a,n/a,n/a
0,186.0465342924781,1.0879364246975456,partner-social_choice-star,1.0879364246975456,n/a,n/a
1,190.02874214533404,1.5,partner-social_feedback-informative,n/a,n/a,44
2,193.5285232770202,1.455864116603152,partner-social_feedback-partner,n/a,1.455864116603152,n/a
3,201.54538326822149,1.5,partner-social_feedback-affective,n/a,n/a,n/a
0,206.2960840308051,0.59001411947429,partner-non_social_choice-pentagon,0.59001411947429,n/a,n/a
1,210.27823081263614,1.5,partner-non_social_feedback-informative,n/a,n/a,50
2,214.7784577262346,1.242342991698024,partner-non_social_feedback-partner,n/a,1.242342991698024,n/a
3,220.79466751215296,1.5,partner-non_social_feedback-affective,n/a,n/a,n/a
0,225.54505231446456,0.45152770814365795,partner-social_choice-star,0.45152770814365795,n/a,n/a
1,229.52787416882165,1.5,partner-social_feedback-informative,n/a,n/a,39
2,234.02749805176154,1.6749803713337315,partner-social_feedback-partner,n/a,1.6749803713337315,n/a
3,239.04451529171,1.5,partner-social_feedback-affective,n/a,n/a,n/a
0,244.54539058211685,0.368893857461444,partner-social_choice-star,0.368893857461444,n/a,n/a
1,249.52737499547493,1.5,partner-social_feedback-informative,n/a,n/a,38
2,253.02721866096545,2.2079537878853444,partner-social_feedback-partner,n/a,2.2079537878853444,n/a
3,261.0442007942165,1.5,partner-social_feedback-affective,n/a,n/a,n/a
0,266.54484094289364,0.5871287878198928,partner-non_social_choice-star,0.5871287878198928,n/a,n/a
1,270.5271990962956,1.5,partner-non_social_feedback-informative,n/a,n/a,39
2,274.0268968495766,1.2871431596240654,partner-non_social_feedback-partner,n/a,1.2871431596240654,n/a
3,282.0435787474298,1.5,partner-non_social_feedback-affective,n/a,n/a,n/a
0,286.04449956683493,0.6871243629138917,partner-social_choice-pentagon,0.6871243629138917,n/a,n/a
1,293.02634940452117,1.5,partner-social_feedback-informative,n/a,n/a,52
2,296.52660886495323,1.4518699984391787,partner-social_feedback-partner,n/a,1.4518699984391787,n/a
3,302.54310316139527,1.5,partner-social_feedback-affective,n/a,n/a,n/a
0,n/a,n/a,partner-social_choice-pentagon_catch,0.42724923304649565,n/a,n/a
1,313.526181733474,1.5,partner-social_feedback-informative_catch,n/a,n/a,48
2,0.0,0.0,partner-social_feedback-partner_catch,n/a,0.0,n/a
3,0.0,1.5,partner-social_feedback-affective_catch,n/a,n/a,n/a
0,324.29364996648474,1.740326002251095,partner-non_social_choice-star,1.740326002251095,n/a,n/a
1,328.2756080498202,1.5,partner-non_social_feedback-informative,n/a,n/a,41
2,331.77556873763297,1.2533233425529033,partner-non_social_feedback-partner,n/a,1.2533233425529033,n/a
3,336.7922769655088,1.5,partner-non_social_feedback-affective,n/a,n/a,n/a
0,341.54335183383137,0.4202988384431592,partner-social_choice-pentagon,0.4202988384431592,n/a,n/a
1,346.52526639949065,1.5,partner-social_feedback-informative,n/a,n/a,49
2,351.02529364375005,1.3652087513683,partner-social_feedback-partner,n/a,1.3652087513683,n/a
3,356.04209366101077,1.5,partner-social_feedback-affective,n/a,n/a,n/a
0,360.79265545958515,0.43865159565484646,partner-social_choice-pentagon,0.43865159565484646,n/a,n/a
1,364.77486404383126,1.5,partner-social_feedback-informative,n/a,n/a,52
2,369.274751226998,1.3183990907364205,partner-social_feedback-partner,n/a,1.3183990907364205,n/a
3,375.29183173213914,1.5,partner-social_feedback-affective,n/a,n/a,n/a
0,380.04243668269555,0.717575765554102,partner-non_social_choice-pentagon,0.717575765554102,n/a,n/a
1,384.02465623778426,1.5,partner-non_social_feedback-informative,n/a,n/a,55
2,387.524494417853,1.2932484336379275,partner-non_social_feedback-partner,n/a,1.2932484336379275,n/a
3,395.5412710306491,1.5,partner-non_social_feedback-affective,n/a,n/a,n/a
0,400.29187927245766,0.8926466463417455,partner-non_social_choice-pentagon,0.8926466463417455,n/a,n/a
1,405.27405786973304,1.5,partner-non_social_feedback-informative,n/a,n/a,57
2,408.7738920271595,1.229514053832645,partner-non_social_feedback-partner,n/a,1.229514053832645,n/a
3,414.7907889535318,1.5,partner-non_social_feedback-affective,n/a,n/a,n/a
0,418.7912340040548,0.45906358005686343,partner-non_social_choice-pentagon,0.45906358005686343,n/a,n/a
1,423.773721979097,1.5,partner-non_social_feedback-informative,n/a,n/a,59
2,427.27376531392565,2.0753843177653835,partner-non_social_feedback-partner,n/a,2.0753843177653835,n/a
3,432.29050937988814,1.5,partner-non_social_feedback-affective,n/a,n/a,n/a
0,n/a,n/a,partner-social_choice-pentagon_catch,0.6299494500135552,n/a,n/a
1,444.0397510203802,1.5,partner-social_feedback-informative_catch,n/a,n/a,54
2,0.0,0.0,partner-social_feedback-partner_catch,n/a,0.0,n/a
3,0.0,1.5,partner-social_feedback-affective_catch,n/a,n/a,n/a
0,455.8070342118426,1.3424859417791595,partner-non_social_choice-star,1.3424859417791595,n/a,n/a
1,459.7899068977713,1.5,partner-non_social_feedback-informative,n/a,n/a,38
2,463.2894561789799,1.2930132919073003,partner-non_social_feedback-partner,n/a,1.2930132919073003,n/a
3,468.30709327154636,1.5,partner-non_social_feedback-affective,n/a,n/a,n/a
0,0.0,0.0,partner-non_social_choice-na,0.0,n/a,n/a
1,0.0,1.5,partner-non_social_feedback-informative,n/a,n/a,40
2,471.5395427572148,1.2417392296492835,partner-non_social_feedback-partner,n/a,1.2417392296492835,n/a
3,476.5557057342039,1.5,partner-non_social_feedback-affective,n/a,n/a,n/a
0,0.0,0.0,partner-social_choice-na,0.0,n/a,n/a
1,0.0,1.5,partner-social_feedback-informative,n/a,n/a,49
2,490.2890041802575,1.2329040442546102,partner-social_feedback-partner,n/a,1.2329040442546102,n/a
3,496.30516020904633,1.5,partner-social_feedback-affective,n/a,n/a,n/a
0,508.8062505279722,1.2674058820539358,partner-social_choice-star,1.2674058820539358,n/a,n/a
1,513.7882916240178,1.5,partner-social_feedback-informative,n/a,n/a,43
2,518.2883967612615,1.30517008280367,partner-social_feedback-partner,n/a,1.30517008280367,n/a
3,523.304564126588,1.5,partner-social_feedback-affective,n/a,n/a,n/a
0,528.8057626911632,0.5575159232639635,partner-social_choice-pentagon,0.5575159232639635,n/a,n/a
1,535.7879069131304,1.5,partner-social_feedback-informative,n/a,n/a,57
2,539.2878719892815,1.3752119658247466,partner-social_feedback-partner,n/a,1.3752119658247466,n/a
3,544.3045860682732,1.5,partner-social_feedback-affective,n/a,n/a,n/a
0,n/a,n/a,partner-social_choice-pentagon_catch,0.8926130024237864,n/a,n/a
1,555.2875333559341,1.5,partner-social_feedback-informative_catch,n/a,n/a,63
2,0.0,0.0,partner-social_feedback-partner_catch,n/a,0.0,n/a
3,0.0,1.5,partner-social_feedback-affective_catch,n/a,n/a,n/a
0,567.5545384365314,0.49598010035333573,partner-non_social_choice-star,0.49598010035333573,n/a,n/a
1,572.5373540740775,1.5,partner-non_social_feedback-informative,n/a,n/a,40
2,576.0374134994763,1.0720627122627775,partner-non_social_feedback-partner,n/a,1.0720627122627775,n/a
3,581.0535881786982,1.5,partner-non_social_feedback-affective,n/a,n/a,n/a
0,585.8045763773625,0.5156336338250185,partner-non_social_choice-pentagon,0.5156336338250185,n/a,n/a
1,590.78670597154,1.5,partner-non_social_feedback-informative,n/a,n/a,62
2,594.2865350092397,1.3464581182597612,partner-non_social_feedback-partner,n/a,1.3464581182597612,n/a
3,599.3035134855436,1.5,partner-non_social_feedback-affective,n/a,n/a,n/a
0,603.304186729596,0.5146451608889038,partner-non_social_choice-pentagon,0.5146451608889038,n/a,n/a
1,607.2864819834995,1.5,partner-non_social_feedback-informative,n/a,n/a,72
2,610.7861782740019,1.4235736350165098,partner-non_social_feedback-partner,n/a,1.4235736350165098,n/a
3,618.802681712812,1.5,partner-non_social_feedback-affective,n/a,n/a,n/a
0,622.8036328848821,0.5538505646882186,partner-non_social_choice-pentagon,0.5538505646882186,n/a,n/a
1,626.7870515530876,1.5,partner-non_social_feedback-informative,n/a,n/a,70
2,630.2856785521126,1.6547227101200406,partner-non_social_feedback-partner,n/a,1.6547227101200406,n/a
3,635.3023129096473,1.5,partner-non_social_feedback-affective,n/a,n/a,n/a
0,639.3034461977077,1.4869894946868953,partner-social_choice-pentagon,1.4869894946868953,n/a,n/a
1,643.285756445096,1.5,partner-social_feedback-informative,n/a,n/a,66
2,649.7854348165556,1.2866794586689139,partner-social_feedback-partner,n/a,1.2866794586689139,n/a
3,654.8020647857529,1.5,partner-social_feedback-affective,n/a,n/a,n/a
0,658.8029121005111,0.40091957604272466,partner-non_social_choice-pentagon,0.40091957604272466,n/a,n/a
1,662.7850508370575,1.5,partner-non_social_feedback-informative,n/a,n/a,69
2,666.2850243241874,1.5118198031759675,partner-non_social_feedback-partner,n/a,1.5118198031759675,n/a
3,671.3017910632252,1.5,partner-non_social_feedback-affective,n/a,n/a,n/a
0,676.0526808899995,3.0,partner-social_choice-na_lapse,0.0,n/a,n/a
1,0.0,1.5,partner-social_feedback-informative_lapse,n/a,n/a,0
2,0.0,3.0,partner-social_feedback-partner_lapse,n/a,0.0,n/a
3,0.0,1.5,partner-social_feedback-affective_lapse,n/a,n/a,n/a
0,700.0520076459461,0.8831788090128612,partner-non_social_choice-pentagon,0.8831788090128612,n/a,n/a
1,704.0339346452274,1.5,partner-non_social_feedback-informative,n/a,n/a,77
2,708.5347642237894,1.4013306169517818,partner-non_social_feedback-partner,n/a,1.4013306169517818,n/a
3,714.5510135047425,1.5,partner-non_social_feedback-affective,n/a,n/a,n/a
0,718.551812547792,0.5720153547918017,partner-non_social_choice-pentagon,0.5720153547918017,n/a,n/a
1,722.5505494380923,1.5,partner-non_social_feedback-informative,n/a,n/a,76
2,729.0335294554334,1.2680772976327717,partner-non_social_feedback-partner,n/a,1.2680772976327717,n/a
3,737.0667188147399,1.5,partner-non_social_feedback-affective,n/a,n/a,n/a
0,741.0677149672656,0.7248062823427972,partner-social_choice-pentagon,0.7248062823427972,n/a,n/a
1,745.0501228551548,1.5,partner-social_feedback-informative,n/a,n/a,74
2,748.5497193109877,1.7738613087994963,partner-social_feedback-partner,n/a,1.7738613087994963,n/a
3,754.5665317618705,1.5,partner-social_feedback-affective,n/a,n/a,n/a
0,760.0674355764686,0.4506485779411378,partner-non_social_choice-pentagon,0.4506485779411378,n/a,n/a
1,767.0497121799399,1.5,partner-non_social_feedback-informative,n/a,n/a,76
2,773.5490797108532,1.4079489607138385,partner-non_social_feedback-partner,n/a,1.4079489607138385,n/a
3,778.5663178304358,1.5,partner-non_social_feedback-affective,n/a,n/a,n/a
