index,onset,duration,trial_type,choice_RT,partner_RT,points
0,4.816204067198669,0.5536481659792116,partner-non_social_choice-pentagon,0.5536481659792116,n/a,n/a
1,11.796978326289263,1.5,partner-non_social_feedback-informative,n/a,n/a,31
2,16.265967480108884,1.2946058728598473,partner-non_social_feedback-partner,n/a,1.2946058728598473,n/a
3,21.282556186462443,1.5,partner-non_social_feedback-affective,n/a,n/a,n/a
0,n/a,n/a,partner-non_social_choice-pentagon_catch,0.602500776190027,n/a,n/a
1,29.28563681038395,1.5,partner-non_social_feedback-informative_catch,n/a,n/a,33
2,0.0,0.0,partner-non_social_feedback-partner_catch,n/a,0.0,n/a
3,0.0,1.5,partner-non_social_feedback-affective_catch,n/a,n/a,n/a
0,41.548763563211196,0.7444764347264936,partner-social_choice-pentagon,0.7444764347264936,n/a,n/a
1,48.53187571745002,1.5,partner-social_feedback-informative,n/a,n/a,30
2,52.03179361867615,1.7173966387413202,partner-social_feedback-partner,n/a,1.7173966387413202,n/a
3,57.03185578701277,1.5,partner-social_feedback-affective,n/a,n/a,n/a
0,61.04835270364583,1.0756416777990125,partner-social_choice-pentagon,1.0756416777990125,n/a,n/a
1,65.03152483204485,1.5,partner-social_feedback-informative,n/a,n/a,30
2,68.53143688213368,1.433720325132981,partner-social_feedback-partner,n/a,1.433720325132981,n/a
3,73.53157694373886,1.5,partner-social_feedback-affective,n/a,n/a,n/a
0,77.54799450431892,0.9437508205310223,partner-social_choice-pentagon,0.9437508205310223,n/a,n/a
1,81.53117614081611,1.5,partner-social_feedback-informative,n/a,n/a,30
2,85.03115401620244,1.315635958312214,partner-social_feedback-partner,n/a,1.315635958312214,n/a
3,93.03107685432587,1.5,partner-social_feedback-affective,n/a,n/a,n/a
0,97.79759525560485,0.6879833359603253,partner-social_choice-pentagon,0.6879833359603253,n/a,n/a
1,104.78069095351975,1.5,partner-social_feedback-informative,n/a,n/a,32
2,111.28054485792882,1.3478197747240301,partner-social_feedback-partner,n/a,1.3478197747240301,n/a
3,116.28052620742801,1.5,partner-social_feedback-affective,n/a,n/a,n/a
0,121.04707715565974,0.5561147861540121,partner-social_choice-star,0.5561147861540121,n/a,n/a
1,126.03031145239493,1.5,partner-social_feedback-informative,n/a,n/a,45
2,129.53015438592138,1.226896509101607,partner-social_feedback-partner,n/a,1.226896509101607,n/a
3,134.5302147257771,1.5,partner-social_feedback-affective,n/a,n/a,n/a
0,138.54671712785193,1.0043137511606801,partner-social_choice-star,1.0043137511606801,n/a,n/a
1,145.5298358646205,1.5,partner-social_feedback-informative,n/a,n/a,49
2,152.02968245510783,1.1672635436466408,partner-social_feedback-partner,n/a,1.1672635436466408,n/a
3,158.02965612498883,1.5,partner-social_feedback-affective,n/a,n/a,n/a
0,163.54619710800216,1.069408753521202,partner-social_choice-star,1.069408753521202,n/a,n/a
1,167.52936996779317,1.5,partner-social_feedback-informative,n/a,n/a,49
2,171.02928933180374,1.7252978686133247,partner-social_feedback-partner,n/a,1.7252978686133247,n/a
3,176.029282383578,1.5,partner-social_feedback-affective,n/a,n/a,n/a
0,181.54584969670987,0.5444549317958263,partner-non_social_choice-star,0.5444549317958263,n/a,n/a
1,185.5289881810677,1.5,partner-non_social_feedback-informative,n/a,n/a,46
2,190.02889108875388,1.242360699956862,partner-non_social_feedback-partner,n/a,1.242360699956862,n/a
3,196.04551855889395,1.5,partner-non_social_feedback-affective,n/a,n/a,n/a
0,200.7953974220618,0.9857367551271636,partner-social_choice-pentagon,0.9857367551271636,n/a,n/a
1,205.77868657321187,1.5,partner-social_feedback-informative,n/a,n/a,30
2,209.27847940637275,1.4605178037318183,partner-social_feedback-partner,n/a,1.4605178037318183,n/a
3,215.29511236195412,1.5,partner-social_feedback-affective,n/a,n/a,n/a
0,219.29504836513706,1.0367235677604185,partner-social_choice-star,1.0367235677604185,n/a,n/a
1,223.27818831227933,1.5,partner-social_feedback-informative,n/a,n/a,47
2,226.77811096755522,1.2935702215127094,partner-social_feedback-partner,n/a,1.2935702215127094,n/a
3,234.79475196845078,1.5,partner-social_feedback-affective,n/a,n/a,n/a
0,239.5446348542755,0.6859361692090715,partner-non_social_choice-pentagon,0.6859361692090715,n/a,n/a
1,243.52779930305633,1.5,partner-non_social_feedback-informative,n/a,n/a,26
2,248.02766710391734,1.3358044637593594,partner-non_social_feedback-partner,n/a,1.3358044637593594,n/a
3,253.04438307251257,1.5,partner-non_social_feedback-affective,n/a,n/a,n/a
0,257.04433589771634,0.8719094565717569,partner-non_social_choice-pentagon,0.8719094565717569,n/a,n/a
1,261.02739941437403,1.5,partner-non_social_feedback-informative,n/a,n/a,30
2,267.5272500275187,1.2849193146416837,partner-non_social_feedback-partner,n/a,1.2849193146416837,n/a
3,275.5438581157655,1.5,partner-non_social_feedback-affective,n/a,n/a,n/a
0,0.0,0.0,partner-social_choice-na,0.0,n/a,n/a
1,0.0,1.5,partner-social_feedback-informative,n/a,n/a,30
2,278.7936855986318,1.803124580592339,partner-social_feedback-partner,n/a,1.803124580592339,n/a
3,283.8102885671333,1.5,partner-social_feedback-affective,n/a,n/a,n/a
0,295.79345996413986,0.6232295280583457,partner-non_social_choice-pentagon,0.6232295280583457,n/a,n/a
1,299.79328369862105,1.5,partner-non_social_feedback-informative,n/a,n/a,32
2,303.2765726669227,1.698992616961732,partner-non_social_feedback-partner,n/a,1.698992616961732,n/a
3,308.29319501731743,1.5,partner-non_social_feedback-affective,n/a,n/a,n/a
0,n/a,n/a,partner-social_choice-star_catch,0.7587071326461228,n/a,n/a
1,317.0428804272501,1.5,partner-social_feedback-informative_catch,n/a,n/a,46
2,0.0,0.0,partner-social_feedback-partner_catch,n/a,0.0,n/a
3,0.0,1.5,partner-social_feedback-affective_catch,n/a,n/a,n/a
0,328.8094200389028,0.7708178902921645,partner-non_social_choice-star,0.7708178902921645,n/a,n/a
1,333.7925267077003,1.5,partner-non_social_feedback-informative,n/a,n/a,47
2,340.29238536615867,1.4717552790975788,partner-non_social_feedback-partner,n/a,1.4717552790975788,n/a
3,345.29239450856085,1.5,partner-non_social_feedback-affective,n/a,n/a,n/a
0,350.05892132085046,0.937953074608231,partner-social_choice-star,0.937953074608231,n/a,n/a
1,355.04206858191446,1.5,partner-social_feedback-informative,n/a,n/a,48
2,361.5419385769519,1.4689767201521136,partner-social_feedback-partner,n/a,1.4689767201521136,n/a
3,366.5419429653052,1.5,partner-social_feedback-affective,n/a,n/a,n/a
0,371.308531214539,0.7851191675586051,partner-non_social_choice-star,0.7851191675586051,n/a,n/a
1,376.29163568915965,1.5,partner-non_social_feedback-informative,n/a,n/a,53
2,379.79155907582754,1.3618614077618076,partner-non_social_feedback-partner,n/a,1.3618614077618076,n/a
3,385.79159162277983,1.5,partner-non_social_feedback-affective,n/a,n/a,n/a
0,389.8080823225796,0.597149179506232,partner-non_social_choice-star,0.597149179506232,n/a,n/a
1,394.79129284906867,1.5,partner-non_social_feedback-informative,n/a,n/a,57
2,399.29114090234043,1.224141720402713,partner-non_social_feedback-partner,n/a,1.224141720402713,n/a
3,407.2910893391909,1.5,partner-non_social_feedback-affective,n/a,n/a,n/a
0,412.80765153257744,0.8494491336846295,partner-non_social_choice-star,0.8494491336846295,n/a,n/a
1,419.7907198032849,1.5,partner-non_social_feedback-informative,n/a,n/a,56
2,426.2905806559197,1.1802256418059187,partner-non_social_feedback-partner,n/a,1.1802256418059187,n/a
3,431.29058248440015,1.5,partner-non_social_feedback-affective,n/a,n/a,n/a
0,0.0,0.0,partner-social_choice-na,0.0,n/a,n/a
1,0.0,1.5,partner-social_feedback-informative,n/a,n/a,58
2,435.2903831800272,2.2023550097255793,partner-social_feedback-partner,n/a,2.2023550097255793,n/a
3,443.29036891787973,1.5,partner-social_feedback-affective,n/a,n/a,n/a
0,453.80684809825243,0.8785739022441703,partner-social_choice-star,0.8785739022441703,n/a,n/a
1,457.7899229514892,1.5,partner-social_feedback-informative,n/a,n/a,54
2,464.28977685589825,1.5284919314644867,partner-social_feedback-partner,n/a,1.5284919314644867,n/a
3,469.28978416982045,1.5,partner-social_feedback-affective,n/a,n/a,n/a
0,473.3063889668024,0.5167691773776824,partner-non_social_choice-pentagon,0.5167691773776824,n/a,n/a
1,477.2895146517967,1.5,partner-non_social_feedback-informative,n/a,n/a,41
2,480.78942853036597,1.6417469156276638,partner-non_social_feedback-partner,n/a,1.6417469156276638,n/a
3,486.7895013038892,1.5,partner-non_social_feedback-affective,n/a,n/a,n/a
0,0.0,0.0,partner-non_social_choice-na,0.0,n/a,n/a
1,0.0,1.5,partner-non_social_feedback-informative,n/a,n/a,57
2,490.03922529475994,1.8936464325797715,partner-non_social_feedback-partner,n/a,1.8936464325797715,n/a
3,498.0559350465219,1.5,partner-non_social_feedback-affective,n/a,n/a,n/a
0,510.5555567339097,0.7790866447417102,partner-social_choice-pentagon,0.7790866447417102,n/a,n/a
1,515.5387146001608,1.5,partner-social_feedback-informative,n/a,n/a,39
2,519.0386683396046,1.502797026598273,partner-social_feedback-partner,n/a,1.502797026598273,n/a
3,527.0552131624263,1.5,partner-social_feedback-affective,n/a,n/a,n/a
0,531.8051768670889,0.5502669398661055,partner-non_social_choice-star,0.5502669398661055,n/a,n/a
1,535.7883047462597,1.5,partner-non_social_feedback-informative,n/a,n/a,54
2,540.2881791296504,1.181995610915692,partner-non_social_feedback-partner,n/a,1.181995610915692,n/a
3,545.3048384153508,1.5,partner-non_social_feedback-affective,n/a,n/a,n/a
0,549.3047272437375,0.6883709738231119,partner-non_social_choice-star,0.6883709738231119,n/a,n/a
1,556.2879161941569,1.5,partner-non_social_feedback-informative,n/a,n/a,55
2,560.7878754190419,1.2461654021503819,partner-non_social_feedback-partner,n/a,1.2461654021503819,n/a
3,565.8044008599709,1.5,partner-non_social_feedback-affective,n/a,n/a,n/a
0,570.5543316519843,0.6603846172129124,partner-social_choice-star,0.6603846172129124,n/a,n/a
1,575.5374514858413,1.5,partner-social_feedback-informative,n/a,n/a,54
2,582.0373064873388,1.6224480354990192,partner-social_feedback-partner,n/a,1.6224480354990192,n/a
3,590.053944562666,1.5,partner-social_feedback-affective,n/a,n/a,n/a
0,594.0538359509251,0.737509192685593,partner-non_social_choice-star,0.737509192685593,n/a,n/a
1,599.0370618366501,1.5,partner-non_social_feedback-informative,n/a,n/a,54
2,602.5368711261353,1.4036297531806667,partner-non_social_feedback-partner,n/a,1.4036297531806667,n/a
3,607.5536167161149,1.5,partner-non_social_feedback-affective,n/a,n/a,n/a
0,611.5534199716144,1.1297621402877667,partner-social_choice-star,1.1297621402877667,n/a,n/a
1,616.5532766187443,1.5,partner-social_feedback-informative,n/a,n/a,58
2,620.0365575417322,1.5275253966797209,partner-social_feedback-partner,n/a,1.5275253966797209,n/a
3,626.0532508371698,1.5,partner-social_feedback-affective,n/a,n/a,n/a
0,630.8197385199765,0.6680656980352069,partner-non_social_choice-star,0.6680656980352069,n/a,n/a
1,634.8028609137064,1.5,partner-non_social_feedback-informative,n/a,n/a,56
2,639.3028135560617,1.333053332021791,partner-non_social_feedback-partner,n/a,1.333053332021791,n/a
3,645.3027974654333,1.5,partner-non_social_feedback-affective,n/a,n/a,n/a
0,650.8193307688284,0.7761936229180719,partner-non_social_choice-star,0.7761936229180719,n/a,n/a
1,655.8024081819381,1.5,partner-non_social_feedback-informative,n/a,n/a,57
2,660.3023158436736,1.7021507684553399,partner-non_social_feedback-partner,n/a,1.7021507684553399,n/a
3,666.3022960960843,1.5,partner-non_social_feedback-affective,n/a,n/a,n/a
0,670.318906378508,0.9403410701220309,partner-social_choice-pentagon,0.9403410701220309,n/a,n/a
1,674.302068633112,1.5,partner-social_feedback-informative,n/a,n/a,42
2,677.8019426508067,1.446216160768472,partner-social_feedback-partner,n/a,1.446216160768472,n/a
3,683.8019148579033,1.5,partner-social_feedback-affective,n/a,n/a,n/a
0,688.5684753142336,0.8476041968747268,partner-non_social_choice-star,0.8476041968747268,n/a,n/a
1,695.5515849085996,1.5,partner-non_social_feedback-informative,n/a,n/a,54
2,700.051521826023,1.3114158253524693,partner-non_social_feedback-partner,n/a,1.3114158253524693,n/a
3,705.0515276771603,1.5,partner-non_social_feedback-affective,n/a,n/a,n/a
0,710.5680602491634,1.0337676462081618,partner-non_social_choice-star,1.0337676462081618,n/a,n/a
1,714.5512506623668,1.5,partner-non_social_feedback-informative,n/a,n/a,51
2,719.0510833564026,1.595475022773826,partner-non_social_feedback-partner,n/a,1.595475022773826,n/a
3,725.0510482495774,1.5,partner-non_social_feedback-affective,n/a,n/a,n/a
0,n/a,n/a,partner-non_social_choice-star_catch,0.6879372582520773,n/a,n/a
1,734.5508297461593,1.5,partner-non_social_feedback-informative_catch,n/a,n/a,50
2,0.0,0.0,partner-non_social_feedback-partner_catch,n/a,0.0,n/a
3,0.0,1.5,partner-non_social_feedback-affective_catch,n/a,n/a,n/a
0,746.317339370732,0.8879953307923643,partner-social_choice-star,0.8879953307923643,n/a,n/a
1,750.3004105670079,1.5,partner-social_feedback-informative,n/a,n/a,56
2,753.8003990475809,1.3508875992820322,partner-social_feedback-partner,n/a,1.3508875992820322,n/a
3,759.8003332222834,1.5,partner-social_feedback-affective,n/a,n/a,n/a
0,763.8168868218117,0.8992627932379946,partner-social_choice-pentagon,0.8992627932379946,n/a,n/a
1,770.7999978789626,1.5,partner-social_feedback-informative,n/a,n/a,52
2,774.2999662462503,1.6408970378979575,partner-social_feedback-partner,n/a,1.6408970378979575,n/a
3,779.2999512527103,1.5,partner-social_feedback-affective,n/a,n/a,n/a
