index,onset,duration,trial_type,choice_RT,partner_RT,points
0,4.784198402572201,1.2053324878470448,partner-non_social_choice-star,1.2053324878470448,n/a,n/a
1,9.033501662631352,1.5,partner-non_social_feedback-informative,n/a,n/a,40
2,12.265965410395438,2.320433450684959,partner-non_social_feedback-partner,n/a,2.320433450684959,n/a
3,20.01602401298078,1.5,partner-non_social_feedback-affective,n/a,n/a,n/a
0,n/a,n/a,partner-non_social_choice-pentagon_catch,0.3916616475057708,n/a,n/a
1,29.533372389533724,1.5,partner-non_social_feedback-informative_catch,n/a,n/a,75
2,0.0,0.0,partner-non_social_feedback-partner_catch,n/a,0.0,n/a
3,0.0,1.5,partner-non_social_feedback-affective_catch,n/a,n/a,n/a
0,40.0330083404001,1.327880093076601,partner-non_social_choice-pentagon,1.327880093076601,n/a,n/a
1,44.29960603703512,1.5,partner-non_social_feedback-informative,n/a,n/a,77
2,47.51538605847236,1.3225636226597999,partner-non_social_feedback-partner,n/a,1.3225636226597999,n/a
3,53.26519562292606,1.5,partner-non_social_feedback-affective,n/a,n/a,n/a
0,57.53261576707564,0.5319922575104101,partner-social_choice-pentagon,0.5319922575104101,n/a,n/a
1,61.781732157112856,1.5,partner-social_feedback-informative,n/a,n/a,82
2,65.01479125594551,1.3597540483324337,partner-social_feedback-partner,n/a,1.3597540483324337,n/a
3,70.76419051087896,1.5,partner-social_feedback-affective,n/a,n/a,n/a
0,75.0322239251409,0.6041087269031777,partner-non_social_choice-pentagon,0.6041087269031777,n/a,n/a
1,80.28213789544861,1.5,partner-non_social_feedback-informative,n/a,n/a,87
2,86.51431493852124,1.3238453827930243,partner-non_social_feedback-partner,n/a,1.3238453827930243,n/a
3,92.26459332365721,1.5,partner-non_social_feedback-affective,n/a,n/a,n/a
0,96.53181818680468,0.38813232738039005,partner-non_social_choice-pentagon,0.38813232738039005,n/a,n/a
1,101.7817343512811,1.5,partner-non_social_feedback-informative,n/a,n/a,84
2,106.01421784656259,1.3815849284023898,partner-non_social_feedback-partner,n/a,1.3815849284023898,n/a
3,110.7637739845477,1.5,partner-non_social_feedback-affective,n/a,n/a,n/a
0,116.53163863067766,0.42289563693248056,partner-social_choice-pentagon,0.42289563693248056,n/a,n/a
1,120.78034361410982,1.5,partner-social_feedback-informative,n/a,n/a,83
2,127.01334749303442,1.2009759661746102,partner-social_feedback-partner,n/a,1.2009759661746102,n/a
3,131.7798173793508,1.5,partner-social_feedback-affective,n/a,n/a,n/a
0,136.03107015817386,0.8561492122385062,partner-social_choice-pentagon,0.8561492122385062,n/a,n/a
1,141.28006586894026,1.5,partner-social_feedback-informative,n/a,n/a,86
2,145.5131439839006,1.3749186786276368,partner-social_feedback-partner,n/a,1.3749186786276368,n/a
3,150.2791329816082,1.5,partner-social_feedback-affective,n/a,n/a,n/a
0,155.2804359520369,0.6495060743727663,partner-non_social_choice-pentagon,0.6495060743727663,n/a,n/a
1,159.54717773240736,1.5,partner-non_social_feedback-informative,n/a,n/a,83
2,162.76261363507547,1.4311537559960925,partner-non_social_feedback-partner,n/a,1.4311537559960925,n/a
3,170.52911826239415,1.5,partner-non_social_feedback-affective,n/a,n/a,n/a
0,176.29676824570015,0.4429477776911881,partner-social_choice-pentagon,0.4429477776911881,n/a,n/a
1,181.54571641614757,1.5,partner-social_feedback-informative,n/a,n/a,82
2,184.77924104440945,1.7341347899687207,partner-social_feedback-partner,n/a,1.7341347899687207,n/a
3,189.52862091752058,1.5,partner-social_feedback-affective,n/a,n/a,n/a
0,193.7965793643566,0.5656562886151733,partner-non_social_choice-pentagon,0.5656562886151733,n/a,n/a
1,201.04524850970256,1.5,partner-non_social_feedback-informative,n/a,n/a,83
2,205.27854348165556,1.1275130086769423,partner-non_social_feedback-partner,n/a,1.1275130086769423,n/a
3,210.02844008146212,1.5,partner-non_social_feedback-affective,n/a,n/a,n/a
0,215.0458391067391,0.3959680689963534,partner-social_choice-pentagon,0.3959680689963534,n/a,n/a
1,219.29465708985208,1.5,partner-social_feedback-informative,n/a,n/a,81
2,222.52808773456127,1.246755830362872,partner-social_feedback-partner,n/a,1.246755830362872,n/a
3,230.2779225319532,1.5,partner-social_feedback-affective,n/a,n/a,n/a
0,234.54537887988408,0.7340828613127997,partner-non_social_choice-pentagon,0.7340828613127997,n/a,n/a
1,241.79426707639095,1.5,partner-non_social_feedback-informative,n/a,n/a,84
2,245.02747757285442,1.2239514708426213,partner-non_social_feedback-partner,n/a,1.2239514708426213,n/a
3,249.77764076414087,1.5,partner-non_social_feedback-affective,n/a,n/a,n/a
0,254.79501857912237,0.3880522402278075,partner-social_choice-pentagon,0.3880522402278075,n/a,n/a
1,260.04369357558426,1.5,partner-social_feedback-informative,n/a,n/a,84
2,264.27736375036056,1.379750237792905,partner-social_feedback-partner,n/a,1.379750237792905,n/a
3,270.02676154251503,1.5,partner-social_feedback-affective,n/a,n/a,n/a
0,274.2944501066181,0.6821498170975246,partner-social_choice-pentagon,0.6821498170975246,n/a,n/a
1,278.544455134921,1.5,partner-social_feedback-informative,n/a,n/a,85
2,282.7764731007733,2.1740725340928293,partner-social_feedback-partner,n/a,2.1740725340928293,n/a
3,288.5266198357958,1.5,partner-social_feedback-affective,n/a,n/a,n/a
0,294.2942047254346,0.7171855692458848,partner-social_choice-pentagon,0.7171855692458848,n/a,n/a
1,301.54382138590245,1.5,partner-social_feedback-informative,n/a,n/a,83
2,307.7760525517997,1.3590808042795288,partner-social_feedback-partner,n/a,1.3590808042795288,n/a
3,313.5254430300588,1.5,partner-social_feedback-affective,n/a,n/a,n/a
0,319.29345066283986,0.6083749219696983,partner-non_social_choice-pentagon,0.6083749219696983,n/a,n/a
1,323.5426661561569,1.5,partner-non_social_feedback-informative,n/a,n/a,79
2,326.7757574361285,1.412128851817215,partner-non_social_feedback-partner,n/a,1.412128851817215,n/a
3,331.52545802354416,1.5,partner-non_social_feedback-affective,n/a,n/a,n/a
0,336.54299528144065,0.7867326672567287,partner-non_social_choice-pentagon,0.7867326672567287,n/a,n/a
1,340.79300177252253,1.5,partner-non_social_feedback-informative,n/a,n/a,78
2,345.02522233327136,1.505311899231856,partner-non_social_feedback-partner,n/a,1.505311899231856,n/a
3,350.7751668390915,1.5,partner-non_social_feedback-affective,n/a,n/a,n/a
0,355.79250077070174,1.2778797456667235,partner-non_social_choice-pentagon,1.2778797456667235,n/a,n/a
1,363.04142261112656,1.5,partner-non_social_feedback-informative,n/a,n/a,74
2,369.2747501299132,1.375332645096023,partner-non_social_feedback-partner,n/a,1.375332645096023,n/a
3,374.02478240247547,1.5,partner-non_social_feedback-affective,n/a,n/a,n/a
0,379.042114139917,0.47264694621117087,partner-non_social_choice-pentagon,0.47264694621117087,n/a,n/a
1,384.2919615537785,1.5,partner-non_social_feedback-informative,n/a,n/a,72
2,387.52427792655453,1.6454479596241072,partner-non_social_feedback-partner,n/a,1.6454479596241072,n/a
3,392.27423669447035,1.5,partner-non_social_feedback-affective,n/a,n/a,n/a
0,396.5418111618087,0.9527189588229703,partner-social_choice-pentagon,0.9527189588229703,n/a,n/a
1,400.79092682045575,1.5,partner-social_feedback-informative,n/a,n/a,68
2,405.0240228544594,1.1335809818247071,partner-social_feedback-partner,n/a,1.1335809818247071,n/a
3,410.7730655570026,1.5,partner-social_feedback-affective,n/a,n/a,n/a
0,416.54127980732255,0.6418100281548504,partner-non_social_choice-pentagon,0.6418100281548504,n/a,n/a
1,420.79141831421293,1.5,partner-non_social_feedback-informative,n/a,n/a,64
2,424.0236615480371,1.0465642794479209,partner-non_social_feedback-partner,n/a,1.0465642794479209,n/a
3,428.79009084223526,1.5,partner-non_social_feedback-affective,n/a,n/a,n/a
0,433.0411121362754,0.3787200756551101,partner-social_choice-pentagon,0.3787200756551101,n/a,n/a
1,437.2901872028042,1.5,partner-social_feedback-informative,n/a,n/a,65
2,443.52305540897305,1.2307482736464408,partner-social_feedback-partner,n/a,1.2307482736464408,n/a
3,449.2897717735573,1.5,partner-social_feedback-affective,n/a,n/a,n/a
0,454.2904384351041,0.4751153858392172,partner-social_choice-pentagon,0.4751153858392172,n/a,n/a
1,458.55697250085086,1.5,partner-social_feedback-informative,n/a,n/a,62
2,461.78941650109846,1.224875215805696,partner-social_feedback-partner,n/a,1.224875215805696,n/a
3,466.53911196878744,1.5,partner-social_feedback-affective,n/a,n/a,n/a
0,470.80645239147907,0.9997714407754756,partner-social_choice-pentagon,0.9997714407754756,n/a,n/a
1,478.0563052907619,1.5,partner-social_feedback-informative,n/a,n/a,62
2,484.28905757169196,1.780907515429135,partner-social_feedback-partner,n/a,1.780907515429135,n/a
3,489.0381880409768,1.5,partner-social_feedback-affective,n/a,n/a,n/a
0,494.80589653544394,1.270775027875061,partner-social_choice-pentagon,1.270775027875061,n/a,n/a
1,502.0560650293046,1.5,partner-social_feedback-informative,n/a,n/a,58
2,506.28836384873284,2.0671152278591762,partner-social_feedback-partner,n/a,2.0671152278591762,n/a
3,514.0381913322299,1.5,partner-social_feedback-affective,n/a,n/a,n/a
0,519.0559264309913,0.39848368324783223,partner-social_choice-star,0.39848368324783223,n/a,n/a
1,524.3047243008923,1.5,partner-social_feedback-informative,n/a,n/a,44
2,527.5380840008174,1.2871669297837798,partner-social_feedback-partner,n/a,1.2871669297837798,n/a
3,532.288054470966,1.5,partner-social_feedback-affective,n/a,n/a,n/a
0,0.0,0.0,partner-social_choice-na,0.0,n/a,n/a
1,0.0,1.5,partner-social_feedback-informative,n/a,n/a,59
2,535.7879014277087,1.8072569199512145,partner-social_feedback-partner,n/a,1.8072569199512145,n/a
3,543.5374948665594,1.5,partner-social_feedback-affective,n/a,n/a,n/a
0,n/a,n/a,partner-non_social_choice-pentagon_catch,1.7530243870869526,n/a,n/a
1,562.5535199766246,1.5,partner-non_social_feedback-informative_catch,n/a,n/a,64
2,0.0,0.0,partner-non_social_feedback-partner_catch,n/a,0.0,n/a
3,0.0,1.5,partner-non_social_feedback-affective_catch,n/a,n/a,n/a
0,578.5544031294694,0.548911491263425,partner-non_social_choice-pentagon,0.548911491263425,n/a,n/a
1,582.8032423228788,1.5,partner-non_social_feedback-informative,n/a,n/a,70
2,586.0369172516866,1.3163548570300918,partner-non_social_feedback-partner,n/a,1.3163548570300918,n/a
3,590.7862177690349,1.5,partner-non_social_feedback-affective,n/a,n/a,n/a
0,595.8039429940382,0.8070780952130008,partner-social_choice-pentagon,0.8070780952130008,n/a,n/a
1,600.0539322974664,1.5,partner-social_feedback-informative,n/a,n/a,72
2,603.286336436985,1.306468664895874,partner-social_feedback-partner,n/a,1.306468664895874,n/a
3,608.0362217002539,1.5,partner-social_feedback-affective,n/a,n/a,n/a
0,0.0,0.0,partner-social_choice-na,0.0,n/a,n/a
1,0.0,1.5,partner-social_feedback-informative,n/a,n/a,37
2,612.2859846386255,1.4807858487829435,partner-social_feedback-partner,n/a,1.4807858487829435,n/a
3,620.0353678029896,1.5,partner-social_feedback-affective,n/a,n/a,n/a
0,630.8030916566377,0.49434873603149754,partner-social_choice-pentagon,0.49434873603149754,n/a,n/a
1,636.0521970758318,1.5,partner-social_feedback-informative,n/a,n/a,65
2,640.2854978989008,2.2686580209110616,partner-social_feedback-partner,n/a,2.2686580209110616,n/a
3,648.0351930008947,1.5,partner-social_feedback-affective,n/a,n/a,n/a
0,652.3025290352498,0.6776514058583416,partner-non_social_choice-pentagon,0.6776514058583416,n/a,n/a
1,657.5693260355283,1.5,partner-non_social_feedback-informative,n/a,n/a,72
2,663.7850493742781,1.3728455550353829,partner-non_social_feedback-partner,n/a,1.3728455550353829,n/a
3,669.5342273838814,1.5,partner-non_social_feedback-affective,n/a,n/a,n/a
0,675.302232091105,0.8094083022224368,partner-non_social_choice-pentagon,0.8094083022224368,n/a,n/a
1,679.5515082897518,1.5,partner-non_social_feedback-informative,n/a,n/a,69
2,682.7844141624801,1.6981017882108063,partner-non_social_feedback-partner,n/a,1.6981017882108063,n/a
3,687.550968524286,1.5,partner-non_social_feedback-affective,n/a,n/a,n/a
0,692.5517181985433,0.48245926800336747,partner-non_social_choice-pentagon,0.48245926800336747,n/a,n/a
1,696.8175077097594,1.5,partner-non_social_feedback-informative,n/a,n/a,72
2,700.0344352813527,1.0667349053082944,partner-non_social_feedback-partner,n/a,1.0667349053082944,n/a
3,705.800708789583,1.5,partner-non_social_feedback-affective,n/a,n/a,n/a
0,n/a,n/a,partner-non_social_choice-pentagon_catch,0.47072448885865015,n/a,n/a
1,715.3180293733349,1.5,partner-non_social_feedback-informative_catch,n/a,n/a,70
2,0.0,0.0,partner-non_social_feedback-partner_catch,n/a,0.0,n/a
3,0.0,1.5,partner-non_social_feedback-affective_catch,n/a,n/a,n/a
0,726.8177278580051,0.34981592754229496,partner-social_choice-pentagon,0.34981592754229496,n/a,n/a
1,731.0669481053537,1.5,partner-social_feedback-informative,n/a,n/a,72
2,734.2999289455083,1.0866484477537597,partner-social_feedback-partner,n/a,1.0866484477537597,n/a
3,739.049905632467,1.5,partner-social_feedback-affective,n/a,n/a,n/a
0,0.0,0.0,partner-social_choice-na,0.0,n/a,n/a
1,0.0,1.5,partner-social_feedback-informative,n/a,n/a,33
2,742.5499895594148,1.743258142833838,partner-social_feedback-partner,n/a,1.743258142833838,n/a
3,747.2997106257362,1.5,partner-social_feedback-affective,n/a,n/a,n/a
0,759.8168768862988,0.49317010182039667,partner-non_social_choice-pentagon,0.49317010182039667,n/a,n/a
1,767.0656195362917,1.5,partner-non_social_feedback-informative,n/a,n/a,69
2,773.2990084917983,1.373848655760412,partner-non_social_feedback-partner,n/a,1.373848655760412,n/a
3,779.0490063890529,1.5,partner-non_social_feedback-affective,n/a,n/a,n/a
